sample name
Applied in-plane field: 100.0(Oe)

Initial resistance: 1495.4313000317018Ohm 
Number Current(mA) Resistance(Ohm)
Pulse width 0.09999999999999999s
1 0 1.98453384
2 0.55 1.98578214
3 1.1 1.98535203
4 1.6500000000000001 1.98581673
5 2.2 1.98473486
6 2.75 1.98450541
7 3.3 1.98483844
8 3.8499999999999996 1.98087741
9 4.3999999999999995 1.96104536
10 4.949999999999999 1.93313869
11 5.499999999999999 1.90259609
12 6.049999999999999 1.87684741
13 6.599999999999999 1.85109792
14 7.149999999999999 1.83792129
15 7.699999999999998 1.82515704
16 8.249999999999998 1.81651832
17 8.799999999999999 1.81204249
18 9.35 1.80674667
19 9.9 1.80417233
20 10.450000000000001 1.80042952
21 11.000000000000002 1.79551768
22 10.450000000000001 1.79559279
23 9.9 1.79447415
24 9.35 1.79493778
25 8.799999999999999 1.79400796
26 8.249999999999998 1.79395814
27 7.699999999999998 1.79329227
28 7.149999999999999 1.79525415
29 6.599999999999999 1.79576042
30 6.049999999999999 1.79500115
31 5.499999999999999 1.79614686
32 4.949999999999999 1.79620131
33 4.3999999999999995 1.79623542
34 3.8499999999999996 1.79735418
35 3.3 1.79684204
36 2.75 1.79758916
37 2.2 1.79715674
38 1.6500000000000001 1.79832187
39 1.1 1.79879966
40 0.55 1.79887473
41 0.0 1.79851806
42 -0.55 1.79860432
43 -1.1 1.79893698
44 -1.6500000000000001 1.79897207
45 -2.2 1.80112077
46 -2.75 1.80415182
47 -3.3 1.80997422
48 -3.8499999999999996 1.83585082
49 -4.3999999999999995 1.86517762
50 -4.949999999999999 1.90784123
51 -5.499999999999999 1.93256494
52 -6.049999999999999 1.94532744
53 -6.599999999999999 1.95323843
54 -7.149999999999999 1.96003799
55 -7.699999999999998 1.96489928
56 -8.249999999999998 1.96984473
57 -8.799999999999999 1.97474369
58 -9.35 1.97686493
59 -9.9 1.97711505
60 -10.450000000000001 1.98017725
61 -11.000000000000002 1.98023089
62 -10.450000000000001 1.97995539
63 -9.9 1.98053928
64 -9.35 1.97934567
65 -8.799999999999999 1.98092542
66 -8.249999999999998 1.97907064
67 -7.699999999999998 1.98034434
68 -7.149999999999999 1.98059934
69 -6.599999999999999 1.98069506
70 -6.049999999999999 1.98134094
71 -5.499999999999999 1.98057095
72 -4.949999999999999 1.98142571
73 -4.3999999999999995 1.98094191
74 -3.8499999999999996 1.98132
75 -3.3 1.98049351
76 -2.75 1.98134929
77 -2.2 1.98225902
78 -1.6500000000000001 1.98200995
79 -1.1 1.98228686
80 -0.55 1.9817208
81 0.0 1.9817142
